Folder: Ixy

File: 01122021_RNi on NI FOAM_A_Pt_C_POL_2.txt
EXPLAIN
TAG	LSV
TITLE	LABEL	Linear Sweep Voltammetry	Test &Identifier
DATE	LABEL	1/12/2021	Date
TIME	LABEL	10:44:03	Time
NOTES	NOTES	1	&Notes...
	Ni foam_anode_Pt_cathode in 1M KOH
PSTAT	PSTAT	My Pstat	Potentiostat
VINIT	POTEN	7.00000E-001	F	&Initial E (V)
VFINAL	POTEN	1.50000E+000	F	&Final E (V)
SCANRATE	QUANT	9.99998E-001	&Scan Rate (mV/s)
STEPSIZE	QUANT	1.00000E+000	St&ep Size (mV)
IMODE	SELECTOR	1	I/E Range &Mode
IRANGE	QUANT	2.00000E+003	&Max Current (mA)
AREA	QUANT	1.69000E+000	Electrode &Area (cm^2)
ELECTRODETYPE	SELECTOR	0	Electrode Type
STRIPPING	TOGGLE	F	Used for Stripping
POLARITY	TOGGLE	F	Signal Polarity
CONDIT	TWOPARAM	F	1.50000E+001	0.00000E+000	Conditionin&g	Time(s)	E(V)
DELAY	TWOPARAM	F	3.00000E+001	0.00000E+000	Init. De&lay	Time(s)	Stab.(mV/s)
EQDELAY	QUANT	5.00000E+000	Equil. &Time (s)
IRCOMP	SELECTOR	0	IRCom&p
PFCOR	QUANT	5.00000E+001	PF Corr. (ohm)
SAMPLINGMODE	SELECTOR	1	Sampling &Mode
EOC	QUANT	0	Open Circuit (V)
PSTATMODEL	IQUANT	5	Pstat Model
PSTATSECTION	LABEL	REF3000-14115	Pstat Section
PSTATSERIALNO	LABEL	14115	Pstat Serial Number
CTRLMODE	IQUANT	1	Control Mode
IESTAB	IQUANT	2	I/E Stability
CASPEED	IQUANT	2	Control Amp Speed
CONVENTION	IQUANT	1	Current Convention
ICHRANGE	IQUANT	2	Ich Range
ICHRANGEMODE	TOGGLE	F	Ich Auto Range
ICHOFFSETENABLE	TOGGLE	F	Ich Offset Enable
ICHOFFSET	QUANT	0	Ich Offset (V)
ICHFILTER	IQUANT	3	Ich Filter
VCHRANGE	IQUANT	2	Vch Range
VCHRANGEMODE	TOGGLE	T	Vch Auto Range
VCHOFFSETENABLE	TOGGLE	F	Vch Offset Enable
VCHOFFSET	QUANT	0	Vch Offset (V)
VCHFILTER	IQUANT	3	Vch Filter
ACHRANGE	IQUANT	2	Ach Range
ACHOFFSETENABLE	TOGGLE	F	Ach Offset Enable
ACHOFFSET	QUANT	0	Ach Offset (V)
ACHFILTER	IQUANT	1	Ach Filter
IERANGELOWERLIMIT	IQUANT	2	I/E Range Lower Limit
IERANGEMODE	TOGGLE	F	I/E AutoRange
IERANGE	IQUANT	12	I/E Range
POSFEEDENABLE	TOGGLE	F	Positive Feedback IR Comp
POSFEEDRESISTANCE	QUANT	0	Positive Feedback Resistance (ohm)
ACHSELECT	IQUANT	0	Ach Select
CABLEID	IQUANT	13	Cable ID
DCCALDATE	LABEL	2/23/2015	DC Calibration Date
ACCALDATE	LABEL		AC Calibration Date
THERMOSELECT	IQUANT	1	Thermo Select
FRAMEWORKVERSION	QUANT	6.21	Framework Version
INSTRUMENTVERSION	LABEL	3.20	Instrument Version
COMPLIANCEVOLTAGE	IQUANT	0	Compliance Voltage
CURVE	TABLE	801
	Pt	T	Vf	Im	Vu	Sig	Ach	IERange	Over	Cycle
	#	s	V vs. Ref.	A	V	V	V	#	bits	#
	0	1	6.99351E-001	4.73227E-003	0.00000E+000	7.00000E-001	5.18110E-004	12	...........	0
	8	9	7.07219E-001	4.02101E-003	0.00000E+000	7.08000E-001	5.40234E-004	12	...........	0
	16	17	7.15241E-001	4.09596E-003	0.00000E+000	7.16000E-001	5.28335E-004	12	...........	0
	24	25	7.23340E-001	4.25470E-003	0.00000E+000	7.24000E-001	5.27810E-004	12	...........	0
	32	33	7.31170E-001	4.48085E-003	0.00000E+000	7.32000E-001	5.39159E-004	12	...........	0
	40	41	7.39206E-001	5.00357E-003	0.00000E+000	7.40000E-001	5.29968E-004	12	...........	0
	48	49	7.47312E-001	5.58112E-003	0.00000E+000	7.48000E-001	5.35410E-004	12	...........	0
	56	57	7.55304E-001	5.86635E-003	0.00000E+000	7.56000E-001	4.89660E-004	12	...........	0
	64	65	7.63170E-001	6.26817E-003	0.00000E+000	7.64000E-001	5.58293E-004	12	...........	0
	72	73	7.71265E-001	6.81152E-003	0.00000E+000	7.72000E-001	5.38518E-004	12	...........	0
	80	81	7.79277E-001	7.24113E-003	0.00000E+000	7.80000E-001	5.36868E-004	12	...........	0
	88	89	7.87105E-001	7.47070E-003	0.00000E+000	7.88000E-001	5.42676E-004	12	...........	0
	96	97	7.95222E-001	7.96270E-003	0.00000E+000	7.96000E-001	5.34676E-004	12	...........	0
	104	105	8.03241E-001	8.65008E-003	0.00000E+000	8.04000E-001	5.56601E-004	12	...........	0
	112	113	8.11046E-001	8.84542E-003	0.00000E+000	8.12000E-001	5.47759E-004	12	...........	0
	120	121	8.19051E-001	9.08076E-003	0.00000E+000	8.20000E-001	5.56509E-004	12	...........	0
	128	129	8.27203E-001	9.73949E-003	0.00000E+000	8.28000E-001	5.64476E-004	12	...........	0
	136	137	8.34927E-001	1.03888E-002	0.00000E+000	8.36000E-001	5.53118E-004	12	...........	0
	144	145	8.42956E-001	1.06063E-002	0.00000E+000	8.44000E-001	5.48793E-004	12	...........	0
	152	153	8.51163E-001	1.11874E-002	0.00000E+000	8.52000E-001	5.20243E-004	12	...........	0
	160	161	8.58956E-001	1.19656E-002	0.00000E+000	8.60000E-001	5.49134E-004	12	...........	0
	168	169	8.66953E-001	1.21304E-002	0.00000E+000	8.68000E-001	5.50218E-004	12	...........	0
	176	177	8.75112E-001	1.27927E-002	0.00000E+000	8.76000E-001	5.35868E-004	12	...........	0
	184	185	8.83138E-001	1.32091E-002	0.00000E+000	8.84000E-001	5.15143E-004	12	...........	0
	192	193	8.90935E-001	1.37377E-002	0.00000E+000	8.92000E-001	5.83067E-004	12	...........	0
	200	201	8.99079E-001	1.42298E-002	0.00000E+000	9.00000E-001	5.71634E-004	12	...........	0
	208	209	9.07111E-001	1.47058E-002	0.00000E+000	9.08000E-001	5.73042E-004	12	...........	0
	216	217	9.14931E-001	1.52300E-002	0.00000E+000	9.16000E-001	5.74792E-004	12	...........	0
	224	225	9.23052E-001	1.57043E-002	0.00000E+000	9.24000E-001	5.49734E-004	12	...........	0
	232	233	9.31106E-001	1.61776E-002	0.00000E+000	9.32000E-001	5.60934E-004	12	...........	0
	240	241	9.38902E-001	1.67812E-002	0.00000E+000	9.40000E-001	5.72251E-004	12	...........	0
	248	249	9.46910E-001	1.71499E-002	0.00000E+000	9.48000E-001	5.48176E-004	12	...........	0
	256	257	9.55077E-001	1.77129E-002	0.00000E+000	9.56000E-001	5.48218E-004	12	...........	0
	264	265	9.62962E-001	1.83424E-002	0.00000E+000	9.64000E-001	5.50576E-004	12	...........	0
	272	273	9.70907E-001	1.86508E-002	0.00000E+000	9.72000E-001	5.85867E-004	12	...........	0
	280	281	9.79055E-001	1.92342E-002	0.00000E+000	9.80000E-001	5.63134E-004	12	...........	0
	288	289	9.86880E-001	1.97459E-002	0.00000E+000	9.88000E-001	5.77709E-004	12	...........	0
	296	297	9.94903E-001	2.02256E-002	0.00000E+000	9.96000E-001	5.75101E-004	12	...........	0
	304	305	1.00300E+000	2.07818E-002	0.00000E+000	1.00400E+000	5.54576E-004	12	...........	0
	312	313	1.01105E+000	2.12291E-002	0.00000E+000	1.01200E+000	5.26943E-004	12	...........	0
	320	321	1.01889E+000	2.17469E-002	0.00000E+000	1.02000E+000	5.47493E-004	12	...........	0
	328	329	1.02693E+000	2.22289E-002	0.00000E+000	1.02800E+000	5.64367E-004	12	...........	0
	336	337	1.03502E+000	2.27145E-002	0.00000E+000	1.03600E+000	5.80167E-004	12	...........	0
	344	345	1.04287E+000	2.32420E-002	0.00000E+000	1.04400E+000	5.87592E-004	12	...........	0
	352	353	1.05091E+000	2.35360E-002	0.00000E+000	1.05200E+000	5.83942E-004	12	...........	0
	360	361	1.05899E+000	2.41884E-002	0.00000E+000	1.06000E+000	5.68567E-004	12	...........	0
	368	369	1.06682E+000	2.48271E-002	0.00000E+000	1.06800E+000	5.75959E-004	12	...........	0
	376	377	1.07486E+000	2.51159E-002	0.00000E+000	1.07600E+000	5.65934E-004	12	...........	0
	384	385	1.08296E+000	2.56637E-002	0.00000E+000	1.08400E+000	5.67451E-004	12	...........	0
	392	393	1.09083E+000	2.63819E-002	0.00000E+000	1.09200E+000	5.49768E-004	12	...........	0
	400	401	1.09884E+000	2.66628E-002	0.00000E+000	1.10000E+000	5.79284E-004	12	...........	0
	408	409	1.10694E+000	2.71787E-002	0.00000E+000	1.10800E+000	5.63834E-004	12	...........	0
	416	417	1.11484E+000	2.77517E-002	0.00000E+000	1.11600E+000	5.31451E-004	12	...........	0
	424	425	1.12280E+000	2.81870E-002	0.00000E+000	1.12400E+000	5.54084E-004	12	...........	0
	432	433	1.13088E+000	2.84769E-002	0.00000E+000	1.13200E+000	5.60901E-004	12	...........	0
	440	441	1.13897E+000	2.91239E-002	0.00000E+000	1.14000E+000	5.46351E-004	12	...........	0
	448	449	1.14678E+000	2.96681E-002	0.00000E+000	1.14800E+000	5.52193E-004	12	...........	0
	456	457	1.15484E+000	2.99539E-002	0.00000E+000	1.15600E+000	5.78826E-004	12	...........	0
	464	465	1.16293E+000	3.06188E-002	0.00000E+000	1.16400E+000	5.43651E-004	12	...........	0
	472	473	1.17077E+000	3.12490E-002	0.00000E+000	1.17200E+000	5.48334E-004	12	...........	0
	480	481	1.17884E+000	3.15317E-002	0.00000E+000	1.18000E+000	5.61184E-004	12	...........	0
	488	489	1.18690E+000	3.20142E-002	0.00000E+000	1.18800E+000	5.53576E-004	12	...........	0
	496	497	1.19475E+000	3.27979E-002	0.00000E+000	1.19600E+000	5.75234E-004	12	...........	0
	504	505	1.20275E+000	3.30163E-002	0.00000E+000	1.20400E+000	5.77234E-004	12	...........	0
	512	513	1.21085E+000	3.32805E-002	0.00000E+000	1.21200E+000	5.64934E-004	12	...........	0
	520	521	1.21874E+000	3.39873E-002	0.00000E+000	1.22000E+000	5.56101E-004	12	...........	0
	528	529	1.22673E+000	3.45090E-002	0.00000E+000	1.22800E+000	5.47068E-004	12	...........	0
	536	537	1.23477E+000	3.47516E-002	0.00000E+000	1.23600E+000	5.54468E-004	12	...........	0
	544	545	1.24283E+000	3.54111E-002	0.00000E+000	1.24400E+000	4.88177E-004	12	...........	0
	552	553	1.25069E+000	3.60567E-002	0.00000E+000	1.25200E+000	5.54176E-004	12	...........	0
	560	561	1.25872E+000	3.63404E-002	0.00000E+000	1.26000E+000	5.54668E-004	12	...........	0
	568	569	1.26681E+000	3.65465E-002	0.00000E+000	1.26800E+000	4.57227E-004	12	...........	0
	576	577	1.27470E+000	3.76516E-002	0.00000E+000	1.27600E+000	5.58818E-004	12	...........	0
	584	585	1.28270E+000	3.77978E-002	0.00000E+000	1.28400E+000	6.08175E-004	12	...........	0
	592	593	1.29074E+000	3.84773E-002	0.00000E+000	1.29200E+000	5.38318E-004	12	...........	0
	600	601	1.29865E+000	3.89926E-002	0.00000E+000	1.30000E+000	5.90417E-004	12	...........	0
	608	609	1.30667E+000	3.94097E-002	0.00000E+000	1.30800E+000	5.90367E-004	12	...........	0
	616	617	1.31469E+000	3.97376E-002	0.00000E+000	1.31600E+000	5.68867E-004	12	...........	0
	624	625	1.32269E+000	4.02300E-002	0.00000E+000	1.32400E+000	5.47309E-004	12	...........	0
	632	633	1.33063E+000	4.07015E-002	0.00000E+000	1.33200E+000	5.88184E-004	12	...........	0
	640	641	1.33868E+000	4.11737E-002	0.00000E+000	1.34000E+000	5.43243E-004	12	...........	0
	648	649	1.34665E+000	4.16191E-002	0.00000E+000	1.34800E+000	5.69442E-004	12	...........	0
	656	657	1.35463E+000	4.20719E-002	0.00000E+000	1.35600E+000	5.87625E-004	12	...........	0
	664	665	1.36266E+000	4.25900E-002	0.00000E+000	1.36400E+000	5.65426E-004	12	...........	0
	672	673	1.37076E+000	4.28848E-002	0.00000E+000	1.37200E+000	4.64861E-004	12	...........	0
	680	681	1.37860E+000	4.34448E-002	0.00000E+000	1.38000E+000	5.38193E-004	12	...........	0
	688	689	1.38665E+000	4.40337E-002	0.00000E+000	1.38800E+000	5.72876E-004	12	...........	0
	696	697	1.39463E+000	4.43748E-002	0.00000E+000	1.39600E+000	5.39284E-004	12	...........	0
	704	705	1.40257E+000	4.48751E-002	0.00000E+000	1.40400E+000	5.88084E-004	12	...........	0
	712	713	1.41060E+000	4.53292E-002	0.00000E+000	1.41200E+000	6.05059E-004	12	...........	0
	720	721	1.41859E+000	4.58884E-002	0.00000E+000	1.42000E+000	5.73142E-004	12	...........	0
	728	729	1.42651E+000	4.62015E-002	0.00000E+000	1.42800E+000	5.80159E-004	12	...........	0
	736	737	1.43454E+000	4.67149E-002	0.00000E+000	1.43600E+000	5.61767E-004	12	...........	0
	744	745	1.44255E+000	4.72949E-002	0.00000E+000	1.44400E+000	5.51851E-004	12	...........	0
	752	753	1.45045E+000	4.75832E-002	0.00000E+000	1.45200E+000	5.47026E-004	12	...........	0
	760	761	1.45846E+000	4.81013E-002	0.00000E+000	1.46000E+000	5.49668E-004	12	...........	0
	768	769	1.46653E+000	4.86516E-002	0.00000E+000	1.46800E+000	5.51118E-004	12	...........	0
	776	777	1.47441E+000	4.89479E-002	0.00000E+000	1.47600E+000	5.28751E-004	12	...........	0
	784	785	1.48243E+000	4.92242E-002	0.00000E+000	1.48400E+000	5.18968E-004	12	...........	0
	792	793	1.49050E+000	4.98513E-002	0.00000E+000	1.49200E+000	5.60134E-004	12	...........	0
	800	801	1.49841E+000	5.04884E-002	0.00000E+000	1.50000E+000	5.01402E-004	12	...........	0